Folder: 2024-Real-SIC-in-FLiNaK/Experimental data/SEM and EDX/EDX/First/modified/line scan

Note: README.md
# 2024-Real-SIC-in-FLiNaK
Data repository for Wande's SiC/Al2O3/Y2O3 cororison in FLiNaK manuscript

File: Line Data 1.csv
Distance (µm),K Wt%,Li Wt%,C Wt%,O Wt%,F Wt%,Na Wt%,Al Wt%,Si Wt%,
0,0.90805,0,9.535677,0.450276,0.335181,0,0.008848,88.76196,
0.039434,1.587125,0,10.96445,0.877625,2.010112,0.704726,0.219854,83.63611,
0.0788679,0.134782,0,11.30057,0.603638,0.91755,0,0.273253,86.7702,
0.118302,0.504492,0,10.82731,1.323348,0.957279,0.030336,0.072528,86.28471,
0.157736,1.056948,0,12.58894,0.791867,1.779687,0,0,83.78256,
0.19717,0.894163,0,10.59688,1.214509,0.868201,0.132109,0.423215,85.87093,
0.236604,2.101208,0,10.04248,0,2.763793,0,0,85.09251,
0.276038,2.348285,0,10.88777,0.47149,1.177689,0.790709,0,84.32405,
0.315472,2.496428,0,9.552999,0.337592,1.098092,0.239164,0.054906,86.22082,
0.354906,3.11304,0,12.13472,0.085784,2.707725,0.412387,0.611114,80.93523,
0.39434,2.993915,0,14.15883,0.66757,2.836826,0.357622,0.10503,78.8802,
0.433774,3.062427,0,12.9688,0.418938,1.970258,0,0,81.57958,
0.473208,2.773796,0,18.84686,0.090511,3.36566,0,0.595435,74.32774,
0.512641,3.67751,0,21.11259,0.757726,2.83391,0.190245,0.144199,71.28382,
0.552075,4.191543,0,16.7995,1.367914,2.468243,0.056403,0,75.1164,
0.591509,4.394379,0,18.44703,0.729574,2.555418,0,0,73.8736,
0.630943,3.270365,0,24.30221,0.652033,5.19447,0.175277,0.100803,66.30484,
0.670377,3.262613,0,19.57474,0.183138,4.943188,0.552194,0,71.48413,
0.709811,2.666722,0,24.0362,0.672173,3.894849,0,0.29715,68.43291,
0.749245,3.20143,0,22.35806,0.565238,5.593783,0,0.192637,68.08885,
0.788679,2.284079,0,22.77354,1.057473,4.177418,0.551799,0.39649,68.7592,
0.828113,3.978337,0,18.82635,0.532462,4.482486,0,0,72.18036,
0.867547,2.235047,0,19.30012,0.823436,6.218955,0.18279,0.191458,71.04819,
0.906981,1.862025,0,22.68354,0.587103,6.076628,0,0.645644,68.14506,
0.946415,2.609482,0,21.95977,1.672836,4.569484,0,0.237022,68.95141,
0.985849,1.458981,0,18.74067,1.214264,5.590395,0.179471,0.106143,72.71007,
1.02528,1.673311,0,19.48126,0.563329,7.005603,0,0,71.27649,
1.06472,2.204214,0,18.00748,1.170322,7.431102,0,0.057818,71.12906,
1.10415,2.492154,0,17.47357,0.99205,5.234582,0,0.060583,73.74706,
1.14358,1.956313,0,16.27469,0.661667,7.266985,0.253555,0.240302,73.34649,
1.18302,3.260782,0,15.19673,1.085777,5.820106,0,0,74.6366,
1.22245,3.37185,0,17.12805,0.923761,3.834921,0.044648,0.27007,74.4267,
1.26189,3.319817,0,15.77009,0.849946,4.186231,0.372329,0,75.50159,
1.30132,3.486306,0,15.14262,1.089642,4.230586,0.248111,0.72751,75.07522,
1.34075,2.894863,0,19.15199,0.829184,3.667567,0,0.184923,73.27148,
1.38019,1.447786,0,17.7359,1.230547,4.353364,0,0.290262,74.94214,
1.41962,2.21351,0,19.58673,0.930115,3.868283,0,0.041346,73.36002,
1.45906,2.771867,0,18.22521,0.560224,2.260862,0,0.459105,75.72273,
1.49849,1.8201,0,18.40678,0.524547,3.136442,0,0,76.11213,
1.53792,1.747236,0,16.37818,0.93819,1.166567,0.667496,0,79.10233,
1.57736,1.050526,0,14.41466,0.334248,1.828094,0.248422,0.00753,82.11652,
1.61679,1.994578,0,19.71323,0.807607,1.64907,0.181742,0.211575,75.44219,
1.65623,0,0,15.41881,0.850342,1.313307,0,0.310769,82.10677,
1.69566,0.502799,0,14.47695,0.255206,1.107395,0.381632,0.248292,83.02773,
1.73509,1.336996,0,14.28415,0.314822,1.252877,0.197592,0.893005,81.72056,
1.77453,1.087447,0,14.50562,0.416196,0.719285,0,0.227438,83.04401,
1.81396,0.131429,0,10.8802,0.744892,1.006333,0.039863,0.239913,86.95737,
1.8534,0.801969,0,12.15838,0.007255,1.212542,0,0.551167,85.26868,
1.89283,0.373007,0,11.76108,0.256213,1.923389,0,0.116208,85.5701,
1.93226,0,0,10.33824,0.633265,0.678587,0.304186,0,88.04572,
1.9717,0,0,12.80198,0.64084,0.717699,0.139623,0.213868,85.48599,
2.01113,0,0,10.15864,0.345451,0.960762,0.198779,0,88.33636,
2.05057,0.388409,0,8.512188,0.424763,0.581714,0,0,90.09293,
2.09,0.125258,0,9.430631,0.48588,1.491646,0,0.114097,88.35249,
2.12943,0.14737,0,9.635163,0.075144,0.564424,0,0,89.5779,
2.16887,0.290088,0,8.400762,0,0.147444,0.32434,0.223556,90.61381,
2.2083,0.519253,0,8.122711,0.487908,0.650388,0,0,90.21974,
2.24774,0,0,9.236788,0.544973,0.48529,0,0.106257,89.62669,
2.28717,0.66266,0,7.954277,0.560573,0.484581,0,0.351698,89.98621,
2.3266,0,0,7.798671,0.211088,0.410707,0.142624,0.924105,90.5128,
2.36604,0,0,6.576378,0.615073,0.478053,0,0,92.3305,
2.40547,0,0,8.383224,0.013879,0.336442,0,0.267294,90.99916,
2.44491,0,0,8.85741,0.748454,0.422417,0,0,89.97172,
2.48434,0.899257,0,7.574883,0.55141,0.289618,0,0.564884,90.11995,
2.52377,0.333532,0,7.25778,0.66098,0.561369,0,0,91.18634,
2.56321,0,0,7.250217,0.617286,0.650548,0,1.022767,90.45918,
2.60264,0,0,8.655684,0.124533,0,0,0.20025,91.01953,
2.64208,0,0,6.51719,0.070289,0.118174,0,0,93.29435,
2.68151,0,0,7.264516,0.831085,0.797913,0,0.656631,90.44985,
2.72094,0,0,7.51631,0.439782,0.619275,0.277857,0.624918,90.52186,
2.76038,0,0,7.289127,0.977887,0,0,0.222324,91.51066,
2.79981,0,0,6.584755,0,0.125751,0,0.36715,92.92234,
2.83925,0,0,7.555089,0.348079,0.063381,0.371701,0.186051,91.4757,
2.87868,0,0,6.634921,0.190867,0.452016,0.107916,0,92.61428,
2.91811,0.054515,0,6.851623,0.574059,0.545256,0,0,91.97455,
2.95755,0.182181,0,7.229342,0.128001,0.262288,0.548659,0.892451,90.75708,
2.99698,0.605234,0,9.07801,0.612145,0.007894,0.315548,0.48347,88.8977,
3.03641,0,0,7.52214,0.230493,0.310467,0.0259,0.579394,91.3316,
3.07585,0,0,7.35263,0.64554,0.171921,0.216329,0.336545,91.27704,
3.11528,1.380477,0,7.494448,0.450408,0.848982,0,0,89.82568,
3.15472,0,0,9.099867,0.610713,0.42394,0.55131,0.417804,88.89637,
3.19415,1.234296,0,8.510525,0.349863,1.001621,0,1.076026,87.82767,
3.23358,0.660449,0,8.703636,0.371797,1.732083,0.276346,0.154787,88.1009,
3.27302,1.279729,0,9.447879,0.553226,1.117062,0.235583,0.590216,86.77631,
3.31245,1.35274,0,8.409677,0.445375,1.169568,0,0,88.62264,
3.35189,2.283328,0,10.20021,0.53351,2.730232,0,0.731281,83.52144,
3.39132,0.838568,0,9.886782,0.43554,2.380166,0.352269,0,86.10667,
3.43075,3.404062,0,12.25245,0.636645,2.985273,0.131004,0.26193,80.32863,
3.47019,3.441219,0,11.68517,1.495087,4.761426,0.358662,0.424638,77.8338,
3.50962,2.598887,0,11.89821,1.529227,3.743485,0,0.458714,79.77148,
3.54906,4.790747,0,12.44791,1.272672,5.036042,0.574577,0,75.87805,
3.58849,4.693699,0,13.97939,0.90797,7.013953,0.241355,0,73.16363,
3.62792,2.558971,0,14.49841,0.744306,5.540578,0.172113,0.586819,75.8988,
3.66736,4.053684,0,15.57228,0.690809,6.373067,0.355832,0,72.95433,
3.70679,3.723943,0,14.82014,0.686404,6.524862,0.617164,0,73.62749,
3.74623,4.21843,0,13.37586,0.802297,6.258493,0.659722,0.218695,74.4665,
3.78566,5.60908,0,15.87897,1.294655,5.236666,0.320234,0.08649,71.57391,
3.82509,4.095855,0,18.05011,0.949294,4.989013,0.219862,0,71.69586,
3.86453,3.64707,0,15.77888,0.695865,5.265278,0.191911,0,74.421,
3.90396,4.138777,0,16.9374,0.732249,4.655675,0,0,73.5359,
3.9434,3.183599,0,19.96649,0.661457,5.252643,0.057505,0.069544,70.80876,
3.98283,3.984953,0,21.99976,0.696348,4.011801,0.675834,0.293172,68.33813,
4.02226,2.693141,0,20.22901,0.643825,4.222512,0.346828,0.91825,70.94643,
4.0617,4.480436,0,17.10216,1.017575,4.310576,0.647233,0.288539,72.15347,
4.10113,3.960465,0,20.09241,0.96884,4.833954,0.63223,0,69.5121,
4.14057,1.465062,0,19.31535,1.434768,3.941202,0,0,73.84362,
4.18,3.512802,0,18.3475,0.729506,6.224781,0.154189,0.286931,70.74429,
4.21943,2.69364,0,21.33393,0.833585,5.420197,0.748188,0,68.97046,
4.25887,3.530418,0,17.35435,0.65866,5.214305,0,0,73.24226,
4.2983,2.829098,0,14.69892,1.297919,3.845493,0.348137,0.063335,76.9171,
4.33774,1.173798,0,20.02213,0.6584,3.803938,0.338371,0.544254,73.45911,
4.37717,1.956306,0,17.58014,0.269017,4.09544,0.011993,0.097097,75.99001,
4.4166,1.417425,0,16.56291,1.205376,3.024279,0,0.161375,77.62863,
4.45604,2.11485,0,14.9528,0.394567,2.416949,0,0.456904,79.66393,
4.49547,2.099688,0,15.41104,0.346982,3.363732,0.025777,0,78.75278,
4.53491,1.265926,0,13.8687,0.801852,2.842225,0,0.209005,81.01229,
4.57434,0.725119,0,13.17734,0.362832,2.873005,0.343309,0.215969,82.30243,
4.61377,0.196947,0,11.66696,0.413865,3.184088,0,0.518251,84.01989,
4.65321,0.631787,0,11.60247,0.517311,4.591759,0.187973,0.913559,81.55514,
4.69264,1.220822,0,12.56984,0.15595,4.581693,0,0.250521,81.22118,
4.73208,2.184721,0,10.65513,0.428954,4.123022,0.286025,0.47333,81.84882,
4.77151,1.770334,0,12.2466,0.674407,4.829061,0,0.596584,79.88302,
4.81094,2.558332,0,12.53341,1.267314,4.168571,0,0.319417,79.15295,
4.85038,4.138733,0,10.42811,0.826393,4.634751,0.242897,0,79.72911,
4.88981,3.584849,0,11.53767,0,3.245497,0.019734,0.124966,81.48728,
4.91939,3.600927,0,12.28549,1.400314,3.762452,0.355403,0.785715,77.8097,