Folder: 2024-Real-SIC-in-FLiNaK/Experimental data/EDX/2

Note: README.md
# 2024-Real-SIC-in-FLiNaK
Data repository for Wande's SiC/Al2O3/Y2O3 cororison in FLiNaK manuscript

File: Map Sum Spectrum.txt
#FORMAT      : EMSA/MAS Spectral Data File
#VERSION     : 1.0
#TITLE       : Map Sum Spectrum
#DATE        : 21-APR-2024
#TIME        : 20:36
#OWNER       :
#NPOINTS     : 1024.0
#NCOLUMNS    : 1.0
#XUNITS      : keV
#YUNITS      : counts
#DATATYPE    : XY
#XPERCHAN    : 0.01
#OFFSET      : -0.1
#SIGNALTYPE  : EDS
#CHOFFSET    : 10.0
#LIVETIME    : 58.9824
#REALTIME    : 153.483
#BEAMKV      : 10.0
#PROBECUR    : 0.0
#MAGCAM      : 3292.0
#XTILTSTGE   : 0.0
#AZIMANGLE   : 0.0
#ELEVANGLE   : 35.0
#XPOSITION mm: 57.1695
#YPOSITION mm: 65.3295
#ZPOSITION mm: 35.4358
##OXINSTPT   : 6
##OXINSTSTROB: 30.09
##OXINSTNDET : 1
##OXINSTELEMS: 6,8,9,13,14,19,11,24,26
##OXINSTLABEL: 6, 0.277, C
##OXINSTLABEL: 8, 0.525, O
##OXINSTLABEL: 9, 0.677, F
##OXINSTLABEL: 13, 1.487, Al
##OXINSTLABEL: 14, 1.740, Si
##OXINSTLABEL: 19, 3.314, K
##OXINSTLABEL: 19, 3.590, K
##OXINSTLABEL: 19, 0.260, K
##OXINSTLABEL: 11, 1.041, Na
##OXINSTLABEL: 24, 5.415, Cr
##OXINSTLABEL: 24, 5.947, Cr
##OXINSTLABEL: 24, 0.573, Cr
##OXINSTLABEL: 24, 0.500, Cr
##OXINSTLABEL: 26, 6.404, Fe
##OXINSTLABEL: 26, 7.058, Fe
##OXINSTLABEL: 26, 0.703, Fe
##OXINSTLABEL: 26, 0.615, Fe
#SPECTRUM    : Spectral Data Starts Here
-0.10000, 0.0
-0.06000, 0.0
-0.02000, 984.0
0.02000, 2994.0
0.06000, 1383.0
0.10000, 4691.0
0.14000, 805.0
0.18000, 903.0
0.22000, 2479.0
0.26000, 23973.0
0.30000, 10083.0
0.34000, 765.0
0.38000, 921.0
0.42000, 1238.0
0.46000, 2120.0
0.50000, 11045.0
0.54000, 14311.0
0.58000, 2684.0
0.62000, 3560.0
0.66000, 16688.0
0.70000, 15159.0
0.74000, 3707.0
0.78000, 3110.0
0.82000, 3307.0
0.86000, 3499.0
0.90000, 3486.0
0.94000, 3770.0
0.98000, 3624.0
1.02000, 5413.0
1.06000, 6098.0
1.10000, 3838.0
1.14000, 3416.0
1.18000, 3389.0
1.22000, 3498.0
1.26000, 3382.0
1.30000, 3334.0
1.34000, 3403.0
1.38000, 3420.0
1.42000, 4351.0
1.46000, 12963.0
1.50000, 19563.0
1.54000, 8322.0
1.58000, 4291.0
1.62000, 3675.0
1.66000, 10136.0
1.70000, 99883.0
1.74000, 259091.0
1.78000, 130090.0
1.82000, 23202.0
1.86000, 10182.0
1.90000, 3982.0
1.94000, 2681.0
1.98000, 2392.0
2.02000, 2244.0
2.06000, 1780.0
2.10000, 1509.0
2.14000, 1455.0
2.18000, 1475.0
2.22000, 1472.0
2.26000, 1518.0
2.30000, 1559.0
2.34000, 1462.0
2.38000, 1467.0
2.42000, 1539.0
2.46000, 1469.0
2.50000, 1321.0
2.54000, 1305.0
2.58000, 1275.0
2.62000, 1278.0
2.66000, 1271.0
2.70000, 1286.0
2.74000, 1215.0
2.78000, 1228.0
2.82000, 1246.0
2.86000, 1230.0
2.90000, 1218.0
2.94000, 1197.0
2.98000, 1166.0
3.02000, 1125.0
3.06000, 1075.0
3.10000, 1075.0
3.14000, 1050.0
3.18000, 1142.0
3.22000, 1544.0
3.26000, 3691.0
3.30000, 7846.0
3.34000, 7851.0
3.38000, 3604.0
3.42000, 1904.0
3.46000, 2466.0
3.50000, 2770.0
3.54000, 2117.0
3.58000, 1894.0
3.62000, 1687.0
3.66000, 1152.0
3.70000, 881.0
3.74000, 780.0
3.78000, 782.0
3.82000, 775.0
3.86000, 738.0
3.90000, 722.0
3.94000, 731.0
3.98000, 761.0
4.02000, 738.0
4.06000, 665.0
4.10000, 696.0
4.14000, 720.0
4.18000, 648.0
4.22000, 645.0
4.26000, 647.0
4.30000, 639.0
4.34000, 615.0
4.38000, 614.0
4.42000, 592.0
4.46000, 572.0
4.50000, 580.0
4.54000, 555.0
4.58000, 562.0
4.62000, 540.0
4.66000, 546.0
4.70000, 560.0
4.74000, 522.0
4.78000, 526.0
4.82000, 527.0
4.86000, 511.0
4.90000, 488.0
4.94000, 455.0
4.98000, 490.0
5.02000, 518.0
5.06000, 521.0
5.10000, 512.0
5.14000, 464.0
5.18000, 452.0
5.22000, 444.0
5.26000, 441.0
5.30000, 432.0
5.34000, 441.0
5.38000, 464.0
5.42000, 454.0
5.46000, 411.0
5.50000, 382.0
5.54000, 379.0
5.58000, 350.0
5.62000, 347.0
5.66000, 344.0
5.70000, 321.0
5.74000, 360.0
5.78000, 317.0
5.82000, 355.0
5.86000, 340.0
5.90000, 320.0
5.94000, 296.0
5.98000, 319.0
6.02000, 303.0
6.06000, 293.0
6.10000, 292.0
6.14000, 281.0
6.18000, 273.0
6.22000, 261.0
6.26000, 261.0
6.30000, 283.0
6.34000, 278.0
6.38000, 268.0
6.42000, 302.0
6.46000, 270.0
6.50000, 261.0
6.54000, 237.0
6.58000, 228.0
6.62000, 235.0
6.66000, 239.0
6.70000, 228.0
6.74000, 208.0
6.78000, 212.0
6.82000, 205.0
6.86000, 214.0
6.90000, 210.0
6.94000, 200.0
6.98000, 207.0
7.02000, 195.0
7.06000, 192.0
7.10000, 168.0
7.14000, 170.0
7.18000, 185.0
7.22000, 168.0
7.26000, 177.0
7.30000, 178.0
7.34000, 156.0
7.38000, 173.0
7.42000, 134.0
7.46000, 141.0
7.50000, 146.0
7.54000, 148.0
7.58000, 148.0
7.62000, 149.0
7.66000, 135.0
7.70000, 129.0
7.74000, 121.0
7.78000, 135.0
7.82000, 127.0
7.86000, 108.0
7.90000, 115.0
7.94000, 111.0
7.98000, 103.0
8.02000, 110.0
8.06000, 106.0
8.10000, 110.0
8.14000, 101.0
8.18000, 97.0
8.22000, 98.0
8.26000, 87.0
8.30000, 82.0
8.34000, 82.0
8.38000, 91.0
8.42000, 70.0
8.46000, 77.0
8.50000, 75.0
8.54000, 71.0
8.58000, 73.0
8.62000, 59.0
8.66000, 72.0
8.70000, 58.0
8.74000, 58.0
8.78000, 52.0
8.82000, 56.0
8.86000, 66.0
8.90000, 50.0
8.94000, 43.0
8.98000, 45.0
9.02000, 45.0
9.06000, 41.0
9.10000, 40.0
9.14000, 34.0
9.18000, 39.0
9.22000, 36.0
9.26000, 38.0
9.30000, 20.0
9.34000, 29.0
9.38000, 36.0
9.42000, 22.0
9.46000, 22.0
9.50000, 17.0
9.54000, 16.0
9.58000, 20.0
9.62000, 20.0
9.66000, 13.0
9.70000, 13.0
9.74000, 10.0
9.78000, 5.0
9.82000, 7.0
9.86000, 2.0
9.90000, 6.0
9.94000, 3.0
9.98000, 1.0
10.02000, 5.0
10.06000, 2.0
10.10000, 3.0
10.13000, 2.0
#ENDOFDATA   :