Folder: 2024-Real-SIC-in-FLiNaK/Experimental data/EDX/3

Note: README.md
# 2024-Real-SIC-in-FLiNaK
Data repository for Wande's SiC/Al2O3/Y2O3 cororison in FLiNaK manuscript

File: Line Sum Spectrum.txt
#FORMAT      : EMSA/MAS Spectral Data File
#VERSION     : 1.0
#TITLE       : Line Sum Spectrum
#DATE        : 21-APR-2024
#TIME        : 20:45
#OWNER       :
#NPOINTS     : 1024.0
#NCOLUMNS    : 1.0
#XUNITS      : keV
#YUNITS      : counts
#DATATYPE    : XY
#XPERCHAN    : 0.01
#OFFSET      : -0.1
#SIGNALTYPE  : EDS
#CHOFFSET    : 10.0
#LIVETIME    : 35.0
#REALTIME    : 88.9787
#BEAMKV      : 10.0
#PROBECUR    : 0.0
#MAGCAM      : 9842.0
#XTILTSTGE   : 0.0
#AZIMANGLE   : 0.0
#ELEVANGLE   : 35.0
#XPOSITION mm: 57.1523
#YPOSITION mm: 65.2790
#ZPOSITION mm: 35.4358
##OXINSTPT   : 6
##OXINSTSTROB: 29.11
##OXINSTNDET : 1
##OXINSTELEMS: 6,8,9,14,19,26,28,24,11
##OXINSTLABEL: 6, 0.277, C
##OXINSTLABEL: 8, 0.525, O
##OXINSTLABEL: 9, 0.677, F
##OXINSTLABEL: 14, 1.740, Si
##OXINSTLABEL: 19, 3.314, K
##OXINSTLABEL: 19, 3.590, K
##OXINSTLABEL: 19, 0.260, K
##OXINSTLABEL: 26, 6.404, Fe
##OXINSTLABEL: 26, 7.058, Fe
##OXINSTLABEL: 26, 0.703, Fe
##OXINSTLABEL: 26, 0.615, Fe
##OXINSTLABEL: 28, 7.478, Ni
##OXINSTLABEL: 28, 8.265, Ni
##OXINSTLABEL: 28, 0.851, Ni
##OXINSTLABEL: 28, 0.762, Ni
##OXINSTLABEL: 28, 0.743, Ni
##OXINSTLABEL: 24, 5.415, Cr
##OXINSTLABEL: 24, 5.947, Cr
##OXINSTLABEL: 24, 0.573, Cr
##OXINSTLABEL: 24, 0.500, Cr
##OXINSTLABEL: 11, 1.041, Na
#SPECTRUM    : Spectral Data Starts Here
-0.10000, 0.0
-0.06000, 1.0
-0.02000, 547.0
0.02000, 1732.0
0.06000, 765.0
0.10000, 2580.0
0.14000, 477.0
0.18000, 622.0
0.22000, 1949.0
0.26000, 24254.0
0.30000, 10095.0
0.34000, 382.0
0.38000, 459.0
0.42000, 591.0
0.46000, 869.0
0.50000, 2045.0
0.54000, 2315.0
0.58000, 1478.0
0.62000, 2283.0
0.66000, 7004.0
0.70000, 8159.0
0.74000, 2858.0
0.78000, 1962.0
0.82000, 2139.0
0.86000, 2626.0
0.90000, 2126.0
0.94000, 2061.0
0.98000, 2021.0
1.02000, 2183.0
1.06000, 2227.0
1.10000, 2113.0
1.14000, 2063.0
1.18000, 2050.0
1.22000, 1970.0
1.26000, 2003.0
1.30000, 1966.0
1.34000, 1932.0
1.38000, 1967.0
1.42000, 1999.0
1.46000, 2362.0
1.50000, 2517.0
1.54000, 2328.0
1.58000, 2200.0
1.62000, 2147.0
1.66000, 6200.0
1.70000, 61860.0
1.74000, 163020.0
1.78000, 81050.0
1.82000, 14475.0
1.86000, 6233.0
1.90000, 2105.0
1.94000, 1141.0
1.98000, 1152.0
2.02000, 1232.0
2.06000, 1027.0
2.10000, 916.0
2.14000, 860.0
2.18000, 893.0
2.22000, 893.0
2.26000, 966.0
2.30000, 1099.0
2.34000, 1014.0
2.38000, 935.0
2.42000, 975.0
2.46000, 908.0
2.50000, 829.0
2.54000, 810.0
2.58000, 748.0
2.62000, 766.0
2.66000, 735.0
2.70000, 758.0
2.74000, 732.0
2.78000, 751.0
2.82000, 718.0
2.86000, 709.0
2.90000, 696.0
2.94000, 691.0
2.98000, 702.0
3.02000, 648.0
3.06000, 640.0
3.10000, 655.0
3.14000, 639.0
3.18000, 677.0
3.22000, 732.0
3.26000, 1295.0
3.30000, 2419.0
3.34000, 2346.0
3.38000, 1271.0
3.42000, 1026.0
3.46000, 1505.0
3.50000, 1693.0
3.54000, 1215.0
3.58000, 923.0
3.62000, 787.0
3.66000, 575.0
3.70000, 509.0
3.74000, 485.0
3.78000, 500.0
3.82000, 474.0
3.86000, 467.0
3.90000, 442.0
3.94000, 438.0
3.98000, 424.0
4.02000, 454.0
4.06000, 405.0
4.10000, 408.0
4.14000, 423.0
4.18000, 372.0
4.22000, 383.0
4.26000, 351.0
4.30000, 369.0
4.34000, 391.0
4.38000, 365.0
4.42000, 350.0
4.46000, 353.0
4.50000, 352.0
4.54000, 327.0
4.58000, 334.0
4.62000, 352.0
4.66000, 326.0
4.70000, 318.0
4.74000, 310.0
4.78000, 314.0
4.82000, 303.0
4.86000, 293.0
4.90000, 306.0
4.94000, 292.0
4.98000, 290.0
5.02000, 311.0
5.06000, 307.0
5.10000, 279.0
5.14000, 283.0
5.18000, 281.0
5.22000, 260.0
5.26000, 253.0
5.30000, 251.0
5.34000, 281.0
5.38000, 321.0
5.42000, 367.0
5.46000, 313.0
5.50000, 271.0
5.54000, 247.0
5.58000, 232.0
5.62000, 217.0
5.66000, 230.0
5.70000, 197.0
5.74000, 215.0
5.78000, 198.0
5.82000, 181.0
5.86000, 186.0
5.90000, 198.0
5.94000, 208.0
5.98000, 195.0
6.02000, 188.0
6.06000, 196.0
6.10000, 172.0
6.14000, 167.0
6.18000, 198.0
6.22000, 175.0
6.26000, 185.0
6.30000, 234.0
6.34000, 358.0
6.38000, 517.0
6.42000, 502.0
6.46000, 366.0
6.50000, 218.0
6.54000, 154.0
6.58000, 138.0
6.62000, 148.0
6.66000, 135.0
6.70000, 138.0
6.74000, 136.0
6.78000, 125.0
6.82000, 126.0
6.86000, 119.0
6.90000, 144.0
6.94000, 132.0
6.98000, 136.0
7.02000, 169.0
7.06000, 158.0
7.10000, 132.0
7.14000, 134.0
7.18000, 115.0
7.22000, 107.0
7.26000, 101.0
7.30000, 105.0
7.34000, 89.0
7.38000, 98.0
7.42000, 106.0
7.46000, 104.0
7.50000, 91.0
7.54000, 96.0
7.58000, 85.0
7.62000, 86.0
7.66000, 80.0
7.70000, 69.0
7.74000, 77.0
7.78000, 77.0
7.82000, 78.0
7.86000, 75.0
7.90000, 91.0
7.94000, 67.0
7.98000, 59.0
8.02000, 58.0
8.06000, 78.0
8.10000, 64.0
8.14000, 63.0
8.18000, 68.0
8.22000, 61.0
8.26000, 53.0
8.30000, 51.0
8.34000, 48.0
8.38000, 50.0
8.42000, 45.0
8.46000, 41.0
8.50000, 52.0
8.54000, 33.0
8.58000, 45.0
8.62000, 41.0
8.66000, 31.0
8.70000, 42.0
8.74000, 39.0
8.78000, 36.0
8.82000, 34.0
8.86000, 32.0
8.90000, 30.0
8.94000, 27.0
8.98000, 30.0
9.02000, 29.0
9.06000, 30.0
9.10000, 26.0
9.14000, 24.0
9.18000, 17.0
9.22000, 23.0
9.26000, 19.0
9.30000, 23.0
9.34000, 12.0
9.38000, 13.0
9.42000, 18.0
9.46000, 15.0
9.50000, 13.0
9.54000, 7.0
9.58000, 12.0
9.62000, 10.0
9.66000, 8.0
9.70000, 13.0
9.74000, 6.0
9.78000, 5.0
9.82000, 1.0
9.86000, 3.0
9.90000, 2.0
9.94000, 3.0
9.98000, 2.0
10.02000, 2.0
10.06000, 7.0
10.10000, 1.0
10.13000, 1.0
#ENDOFDATA   :