Folder: 2024-Real-SIC-in-FLiNaK/Experimental data/XRD

Note: README.md
# 2024-Real-SIC-in-FLiNaK
Data repository for Wande's SiC/Al2O3/Y2O3 cororison in FLiNaK manuscript

File: SiC_Theta_2-Theta.asc
*TYPE		=  Raw
*CLASS		=  ASCII CLASS
*SAMPLE		=
*COMMENT	=
*FNAME		=  SiC_Theta_2-Theta.asc
*DATE		=  14-Sep-23 17:30

*GROUP_COUNT	=  1
*GONIO		=  SmartLab(In-plane), 0.000000
*ATTACHMENT	=  Z-Phi Stage
*ASC		=  0, 0, 0.000000, 0.000000
*I_MONOCHRO	=  Soller_slit_5.0deg, 0.000000
*FILTER		=  Cu_K-beta
*C_MONOCHRO	=  None, 0.000000
*SLIT_NAME	=  0, Incident slit
*SLIT_NAME	=  1, Receiving slit # 1
*SLIT_NAME	=  2, Receiving slit # 2
*COUNTER	=  SC-70, 0
*POS_FORMAT	=  0
*SCAN_AXIS	=  2theta/theta
*MEAS_MODE	=  Continuous Scanning
*TARGET		=  29
*XRAY_CHAR	=  K-ALPHA
*WAVE_LENGTH1	=  1.54059
*WAVE_LENGTH2	=  1.54441
*THICKNESS	=  0, 0.000000
*MU		=  0, 0.000000
*SCAN_MODE	=  2theta/theta
*SPEED_DIM	=  sec./step
*XUNIT		=  deg.
*YUNIT		=  counts
*SCALE_MODE	=  1
*REP_COUNT	=  0
*SE_COUNT	=  0
*STD_MATERIAL	=  Unknown, Unknown, 0.000000, 0.000000, 0.000000, 0.000000, 0.000000, 0.000000
*LATT_CONS	=  0, Unknown, Unknown, 0.000000, 0.000000, 0.000000, 0.000000, 0.000000, 0.000000
*SEC_COUNT	=  1
*TSPEC_SIZE	=  0
*EXTRA_SIZE	=  0
*MEMO		=  PB-PSA (XRD measured along surface normal direction)

*BEGIN
*GROUP		=  0
*START		=  20
*STOP		=  80
*STEP		=  0.02
*OFFSET		=  0.000000
*SPEED		=  0.24
*SLIT_SPEC	=  0, 1.000mm, 1, 0.000000
*SLIT_SPEC	=  1, 10.000mm, 10, 0.000000
*SLIT_SPEC	=  2, 10.000mm, 10, 0.000000
*KV		=  45
*MA		=  200
*LOW		=  0.000000
*HIGH		=  0.000000
*CTEMPER	=  0, 0.000000
*CTEMPER	=  1, 0.000000
*CTEMPER	=  2, 0.000000
*PAREX		=  0, 0.000000
*PAREX		=  1, 0.000000
*PAREX		=  2, 0.000000
*PAREX		=  3, 0.000000
*PAREX		=  4, 0.000000
*PAREX		=  5, 0.000000
*PAREX		=  6, 0.000000
*PAREX		=  7, 0.000000
*PAREX		=  8, 0.000000
*PAREX		=  9, 0.000000
*PAREX		=  10, 0.000000
*PAREX		=  11, 0.000000
*PAREX		=  12, 0.000000
*PAREX		=  13, 0.000000
*PAREX		=  14, 0.000000
*PAREX		=  15, 0.000000
*FULL_SCALE	=  26910
*INDEX		=  0, 0, 0
*COUNT		=  3001
54, 70, 65, 59
67, 63, 69, 50
71, 68, 58, 55
59, 54, 58, 60
78, 91, 81, 83
67, 65, 64, 67
50, 50, 49, 58
48, 52, 67, 67
61, 60, 54, 47
55, 60, 59, 51
51, 53, 57, 57
60, 54, 57, 59
56, 58, 50, 54
68, 57, 40, 60
64, 56, 39, 46
47, 46, 54, 48
53, 54, 55, 52
53, 45, 60, 53
39, 48, 41, 45
48, 39, 50, 31
45, 45, 51, 42
46, 49, 52, 39
41, 45, 56, 45
82, 70, 69, 76
111, 89, 109, 63
41, 43, 40, 48
42, 34, 40, 60
40, 45, 40, 41
41, 48, 53, 42
52, 35, 48, 41
31, 43, 28, 48
44, 47, 41, 38
63, 49, 68, 60
145, 124, 113, 101
53, 66, 44, 41
59, 47, 46, 40
40, 40, 40, 50
43, 34, 53, 48
55, 47, 50, 37
39, 40, 40, 37
58, 45, 57, 71
134, 149, 158, 130
62, 41, 39, 40
47, 50, 32, 36
40, 33, 30, 41
41, 34, 37, 48
34, 36, 37, 30
44, 38, 28, 42
37, 30, 31, 33
37, 52, 43, 45
35, 31, 38, 43
35, 33, 32, 41
45, 33, 38, 48
42, 40, 47, 39
26, 42, 42, 52
72, 112, 119, 118
565, 559, 544, 511
185, 174, 145, 132
125, 128, 140, 161
791, 949, 1211, 1511
1054, 853, 688, 524
112, 102, 121, 115
123, 137, 143, 151
178, 176, 190, 186
158, 197, 184, 173
686, 858, 1093, 1389
5252, 4969, 4523, 4176
483, 437, 339, 279
91, 90, 99, 80
78, 85, 83, 94
138, 125, 119, 99
52, 40, 58, 50
54, 49, 47, 58
54, 59, 57, 55
100, 117, 145, 114
173, 180, 174, 208
1016, 1253, 1499, 1524
688, 519, 412, 317
97, 84, 75, 105
70, 72, 68, 58
46, 38, 40, 45
24, 26, 30, 20
26, 29, 24, 27
41, 24, 28, 31
27, 32, 32, 33
33, 36, 30, 33
31, 33, 39, 33
34, 43, 42, 41
80, 86, 81, 138
178, 222, 185, 227
593, 525, 476, 450
98, 88, 72, 72
52, 45, 39, 56
33, 36, 39, 41
45, 66, 56, 63
33, 55, 45, 44
40, 53, 46, 60
83, 112, 123, 152
375, 360, 320, 318
88, 80, 73, 54
36, 50, 43, 48
77, 100, 114, 122
93, 65, 78, 78
41, 35, 47, 33
36, 38, 42, 36
55, 55, 63, 59
187, 235, 216, 233
84, 76, 80, 50
44, 43, 33, 32
46, 31, 38, 32
40, 45, 44, 39
120, 128, 123, 112
83, 70, 54, 66
35, 35, 21, 36
31, 21, 17, 27
28, 29, 29, 19
18, 27, 37, 31
33, 25, 28, 27
26, 34, 25, 21
19, 33, 22, 24
33, 23, 22, 25
26, 25, 25, 30
31, 31, 24, 31
27, 39, 26, 23
22, 28, 33, 15
26, 22, 26, 27
41, 48, 45, 57
117, 109, 119, 148
145, 139, 130, 131
61, 56, 42, 63
39, 36, 39, 53
49, 73, 86, 81
96, 78, 84, 70
45, 26, 42, 32
32, 36, 27, 35
38, 41, 50, 44
75, 76, 93, 84
103, 110, 93, 103
54, 47, 48, 43
29, 28, 31, 28
24, 37, 21, 40
25, 30, 27, 28
21, 28, 24, 31
37, 30, 37, 24
52, 60, 72, 73
226, 228, 232, 206
152, 162, 152, 129
115, 143, 125, 119
61, 45, 48, 55
32, 38, 21, 29
29, 36, 22, 30
29, 52, 46, 64
52, 43, 40, 50
30, 32, 38, 31
29, 27, 24, 29
45, 41, 72, 49
139, 147, 142, 143
113, 110, 87, 87
65, 45, 48, 50
35, 35, 40, 39
35, 29, 26, 36
47, 24, 30, 31
42, 42, 35, 34
36, 29, 37, 33
41, 41, 44, 50
61, 44, 62, 54
130, 135, 167, 202
1189, 1396, 1683, 1915
1443, 1456, 1300, 1098
200, 154, 129, 116
54, 75, 65, 36
46, 54, 37, 48
32, 35, 35, 51
42, 39, 44, 38
42, 52, 60, 53
47, 51, 45, 42
36, 32, 31, 33
30, 29, 26, 28
21, 25, 29, 30
33, 32, 25, 18
24, 17, 26, 36
41, 33, 24, 32
22, 30, 26, 38
28, 28, 21, 28
36, 16, 32, 27
36, 28, 26, 34
33, 43, 41, 47
29, 43, 27, 44
49, 39, 45, 36
41, 55, 61, 68
111, 140, 147, 153
420, 399, 374, 372
190, 160, 143, 109
62, 57, 50, 42
51, 40, 39, 46
33, 29, 37, 44
43, 29, 31, 29
35, 28, 32, 22
28, 31, 24, 21
29, 25, 25, 29
46, 63, 54, 46
78, 107, 78, 114
61, 55, 51, 48
35, 33, 26, 27
35, 27, 41, 32
27, 25, 34, 40
28, 30, 37, 30
28, 27, 28, 35
33, 34, 37, 56
43, 42, 47, 52
39, 47, 39, 38
29, 45, 42, 34
61, 69, 94, 88
111, 103, 114, 109
79, 67, 66, 66
115, 116, 108, 130
659, 839, 884, 1153
850, 854, 895, 865
228, 223, 159, 177
49, 57, 70, 44
34, 47, 40, 37
41, 36, 44, 52
52, 68, 77, 69
204, 241, 251, 231
155, 181, 161, 132
82, 110, 68, 98
179, 181, 205, 199
132, 135, 150, 149
60, 61, 55, 57
43, 46, 31, 43
43, 37, 49, 40
64, 65, 61, 97
170, 173, 155, 164
89, 114, 105, 97
53, 42, 54, 31
47, 29, 42, 32
19, 41, 43, 43
43, 47, 44, 53
53, 53, 50, 44
40, 31, 27, 24
29, 32, 29, 21
34, 27, 35, 39
28, 29, 36, 34
80, 72, 77, 70
53, 49, 61, 70
53, 30, 31, 36
35, 30, 29, 31
23, 33, 24, 31
25, 31, 30, 32
23, 32, 23, 27
32
*END

*EOF