Folder: 2024-Real-SIC-in-FLiNaK/Experimental data/SEM and EDX/EDX/First/1

Note: README.md
# 2024-Real-SIC-in-FLiNaK
Data repository for Wande's SiC/Al2O3/Y2O3 cororison in FLiNaK manuscript

File: Map Sum Spectrum.txt
#FORMAT      : EMSA/MAS Spectral Data File
#VERSION     : 1.0
#TITLE       : Map Sum Spectrum
#DATE        : 21-APR-2024
#TIME        : 20:30
#OWNER       :
#NPOINTS     : 1024.0
#NCOLUMNS    : 1.0
#XUNITS      : keV
#YUNITS      : counts
#DATATYPE    : XY
#XPERCHAN    : 0.01
#OFFSET      : -0.1
#SIGNALTYPE  : EDS
#CHOFFSET    : 10.0
#LIVETIME    : 111.154
#REALTIME    : 220.255
#BEAMKV      : 10.0
#PROBECUR    : 0.0
#MAGCAM      : 806.0
#XTILTSTGE   : 0.0
#AZIMANGLE   : 0.0
#ELEVANGLE   : 35.0
#XPOSITION mm: 57.1695
#YPOSITION mm: 65.3295
#ZPOSITION mm: 35.4358
##OXINSTPT   : 6
##OXINSTSTROB: 29.30
##OXINSTNDET : 1
##OXINSTELEMS: 6,8,9,13,14,19,11,26,22
##OXINSTLABEL: 6, 0.277, C
##OXINSTLABEL: 8, 0.525, O
##OXINSTLABEL: 9, 0.677, F
##OXINSTLABEL: 13, 1.487, Al
##OXINSTLABEL: 14, 1.740, Si
##OXINSTLABEL: 19, 3.314, K
##OXINSTLABEL: 19, 3.590, K
##OXINSTLABEL: 19, 0.260, K
##OXINSTLABEL: 11, 1.041, Na
##OXINSTLABEL: 26, 6.404, Fe
##OXINSTLABEL: 26, 7.058, Fe
##OXINSTLABEL: 26, 0.703, Fe
##OXINSTLABEL: 26, 0.615, Fe
##OXINSTLABEL: 22, 4.511, Ti
##OXINSTLABEL: 22, 4.932, Ti
##OXINSTLABEL: 22, 0.452, Ti
##OXINSTLABEL: 22, 0.395, Ti
#SPECTRUM    : Spectral Data Starts Here
-0.10000, 0.0
-0.06000, 1.0
-0.02000, 1745.0
0.02000, 7692.0
0.06000, 1640.0
0.10000, 5481.0
0.14000, 922.0
0.18000, 1065.0
0.22000, 2875.0
0.26000, 30778.0
0.30000, 13232.0
0.34000, 877.0
0.38000, 1215.0
0.42000, 1517.0
0.46000, 2427.0
0.50000, 12026.0
0.54000, 15411.0
0.58000, 3017.0
0.62000, 4311.0
0.66000, 24565.0
0.70000, 22350.0
0.74000, 4223.0
0.78000, 3519.0
0.82000, 3690.0
0.86000, 3960.0
0.90000, 3894.0
0.94000, 4117.0
0.98000, 4094.0
1.02000, 5918.0
1.06000, 6669.0
1.10000, 4347.0
1.14000, 3948.0
1.18000, 3950.0
1.22000, 3921.0
1.26000, 3861.0
1.30000, 3798.0
1.34000, 3915.0
1.38000, 3893.0
1.42000, 4299.0
1.46000, 8476.0
1.50000, 11888.0
1.54000, 6587.0
1.58000, 4694.0
1.62000, 4247.0
1.66000, 12069.0
1.70000, 122479.0
1.74000, 317709.0
1.78000, 158375.0
1.82000, 28077.0
1.86000, 11921.0
1.90000, 4067.0
1.94000, 2212.0
1.98000, 2199.0
2.02000, 2254.0
2.06000, 1904.0
2.10000, 1661.0
2.14000, 1645.0
2.18000, 1628.0
2.22000, 1660.0
2.26000, 1797.0
2.30000, 1857.0
2.34000, 1755.0
2.38000, 1696.0
2.42000, 1823.0
2.46000, 1679.0
2.50000, 1574.0
2.54000, 1495.0
2.58000, 1484.0
2.62000, 1499.0
2.66000, 1488.0
2.70000, 1441.0
2.74000, 1460.0
2.78000, 1406.0
2.82000, 1388.0
2.86000, 1375.0
2.90000, 1393.0
2.94000, 1454.0
2.98000, 1477.0
3.02000, 1337.0
3.06000, 1256.0
3.10000, 1282.0
3.14000, 1258.0
3.18000, 1298.0
3.22000, 1630.0
3.26000, 3501.0
3.30000, 7068.0
3.34000, 7077.0
3.38000, 3435.0
3.42000, 2090.0
3.46000, 2887.0
3.50000, 3315.0
3.54000, 2426.0
3.58000, 2113.0
3.62000, 1742.0
3.66000, 1266.0
3.70000, 985.0
3.74000, 906.0
3.78000, 916.0
3.82000, 911.0
3.86000, 843.0
3.90000, 860.0
3.94000, 872.0
3.98000, 815.0
4.02000, 825.0
4.06000, 808.0
4.10000, 795.0
4.14000, 748.0
4.18000, 748.0
4.22000, 785.0
4.26000, 765.0
4.30000, 740.0
4.34000, 695.0
4.38000, 697.0
4.42000, 674.0
4.46000, 746.0
4.50000, 821.0
4.54000, 773.0
4.58000, 678.0
4.62000, 628.0
4.66000, 645.0
4.70000, 647.0
4.74000, 606.0
4.78000, 612.0
4.82000, 589.0
4.86000, 597.0
4.90000, 585.0
4.94000, 629.0
4.98000, 579.0
5.02000, 598.0
5.06000, 604.0
5.10000, 557.0
5.14000, 589.0
5.18000, 558.0
5.22000, 526.0
5.26000, 521.0
5.30000, 528.0
5.34000, 502.0
5.38000, 513.0
5.42000, 516.0
5.46000, 485.0
5.50000, 448.0
5.54000, 462.0
5.58000, 436.0
5.62000, 425.0
5.66000, 431.0
5.70000, 399.0
5.74000, 410.0
5.78000, 387.0
5.82000, 429.0
5.86000, 385.0
5.90000, 396.0
5.94000, 431.0
5.98000, 382.0
6.02000, 372.0
6.06000, 363.0
6.10000, 355.0
6.14000, 345.0
6.18000, 329.0
6.22000, 315.0
6.26000, 341.0
6.30000, 322.0
6.34000, 341.0
6.38000, 383.0
6.42000, 349.0
6.46000, 339.0
6.50000, 309.0
6.54000, 271.0
6.58000, 291.0
6.62000, 286.0
6.66000, 286.0
6.70000, 286.0
6.74000, 268.0
6.78000, 283.0
6.82000, 258.0
6.86000, 237.0
6.90000, 252.0
6.94000, 230.0
6.98000, 244.0
7.02000, 261.0
7.06000, 246.0
7.10000, 224.0
7.14000, 228.0
7.18000, 219.0
7.22000, 219.0
7.26000, 196.0
7.30000, 186.0
7.34000, 205.0
7.38000, 200.0
7.42000, 210.0
7.46000, 200.0
7.50000, 196.0
7.54000, 185.0
7.58000, 166.0
7.62000, 166.0
7.66000, 162.0
7.70000, 159.0
7.74000, 163.0
7.78000, 149.0
7.82000, 140.0
7.86000, 151.0
7.90000, 153.0
7.94000, 144.0
7.98000, 140.0
8.02000, 137.0
8.06000, 124.0
8.10000, 137.0
8.14000, 121.0
8.18000, 132.0
8.22000, 123.0
8.26000, 116.0
8.30000, 116.0
8.34000, 111.0
8.38000, 97.0
8.42000, 110.0
8.46000, 102.0
8.50000, 107.0
8.54000, 93.0
8.58000, 84.0
8.62000, 96.0
8.66000, 101.0
8.70000, 85.0
8.74000, 82.0
8.78000, 84.0
8.82000, 79.0
8.86000, 73.0
8.90000, 64.0
8.94000, 76.0
8.98000, 65.0
9.02000, 67.0
9.06000, 51.0
9.10000, 45.0
9.14000, 53.0
9.18000, 51.0
9.22000, 50.0
9.26000, 37.0
9.30000, 39.0
9.34000, 42.0
9.38000, 38.0
9.42000, 37.0
9.46000, 22.0
9.50000, 33.0
9.54000, 27.0
9.58000, 17.0
9.62000, 24.0
9.66000, 22.0
9.70000, 11.0
9.74000, 10.0
9.78000, 8.0
9.82000, 5.0
9.86000, 3.0
9.90000, 4.0
9.94000, 5.0
9.98000, 6.0
10.02000, 3.0
10.06000, 1.0
10.10000, 2.0
10.13000, 5.0
#ENDOFDATA   :