Folder: 2024-Real-SIC-in-FLiNaK/Experimental data/SEM and EDX/EDX/First/5

Note: README.md
# 2024-Real-SIC-in-FLiNaK
Data repository for Wande's SiC/Al2O3/Y2O3 cororison in FLiNaK manuscript

File: Map Sum Spectrum.txt
#FORMAT      : EMSA/MAS Spectral Data File
#VERSION     : 1.0
#TITLE       : Map Sum Spectrum
#DATE        : 21-APR-2024
#TIME        : 21:03
#OWNER       :
#NPOINTS     : 1024.0
#NCOLUMNS    : 1.0
#XUNITS      : keV
#YUNITS      : counts
#DATATYPE    : XY
#XPERCHAN    : 0.01
#OFFSET      : -0.1
#SIGNALTYPE  : EDS
#CHOFFSET    : 10.0
#LIVETIME    : 39.3216
#REALTIME    : 103.337
#BEAMKV      : 10.0
#PROBECUR    : 0.0
#MAGCAM      : 4182.0
#XTILTSTGE   : 0.0
#AZIMANGLE   : 0.0
#ELEVANGLE   : 35.0
#XPOSITION mm: 57.1246
#YPOSITION mm: 65.2625
#ZPOSITION mm: 35.4358
##OXINSTPT   : 6
##OXINSTSTROB: 29.31
##OXINSTNDET : 1
##OXINSTELEMS: 6,9,14,8,19
##OXINSTLABEL: 6, 0.277, C
##OXINSTLABEL: 9, 0.677, F
##OXINSTLABEL: 14, 1.740, Si
##OXINSTLABEL: 8, 0.525, O
##OXINSTLABEL: 19, 3.314, K
##OXINSTLABEL: 19, 3.590, K
##OXINSTLABEL: 19, 0.260, K
#SPECTRUM    : Spectral Data Starts Here
-0.10000, 0.0
-0.06000, 0.0
-0.02000, 583.0
0.02000, 1942.0
0.06000, 854.0
0.10000, 3429.0
0.14000, 432.0
0.18000, 510.0
0.22000, 1349.0
0.26000, 15118.0
0.30000, 6579.0
0.34000, 486.0
0.38000, 572.0
0.42000, 743.0
0.46000, 1161.0
0.50000, 5304.0
0.54000, 6552.0
0.58000, 1540.0
0.62000, 2054.0
0.66000, 8814.0
0.70000, 7779.0
0.74000, 2166.0
0.78000, 2013.0
0.82000, 2100.0
0.86000, 2185.0
0.90000, 2197.0
0.94000, 2301.0
0.98000, 2324.0
1.02000, 2584.0
1.06000, 2683.0
1.10000, 2337.0
1.14000, 2308.0
1.18000, 2304.0
1.22000, 2209.0
1.26000, 2299.0
1.30000, 2213.0
1.34000, 2243.0
1.38000, 2293.0
1.42000, 2534.0
1.46000, 5562.0
1.50000, 7579.0
1.54000, 3939.0
1.58000, 2750.0
1.62000, 2513.0
1.66000, 7164.0
1.70000, 74230.0
1.74000, 194300.0
1.78000, 96740.0
1.82000, 17075.0
1.86000, 7320.0
1.90000, 2309.0
1.94000, 1137.0
1.98000, 1163.0
2.02000, 1266.0
2.06000, 1045.0
2.10000, 935.0
2.14000, 926.0
2.18000, 905.0
2.22000, 964.0
2.26000, 990.0
2.30000, 991.0
2.34000, 950.0
2.38000, 904.0
2.42000, 977.0
2.46000, 920.0
2.50000, 889.0
2.54000, 848.0
2.58000, 809.0
2.62000, 828.0
2.66000, 823.0
2.70000, 819.0
2.74000, 813.0
2.78000, 769.0
2.82000, 810.0
2.86000, 781.0
2.90000, 759.0
2.94000, 787.0
2.98000, 769.0
3.02000, 727.0
3.06000, 707.0
3.10000, 714.0
3.14000, 689.0
3.18000, 745.0
3.22000, 877.0
3.26000, 1852.0
3.30000, 3596.0
3.34000, 3616.0
3.38000, 1746.0
3.42000, 1227.0
3.46000, 1818.0
3.50000, 2027.0
3.54000, 1419.0
3.58000, 1183.0
3.62000, 948.0
3.66000, 682.0
3.70000, 520.0
3.74000, 536.0
3.78000, 499.0
3.82000, 519.0
3.86000, 483.0
3.90000, 484.0
3.94000, 473.0
3.98000, 484.0
4.02000, 436.0
4.06000, 460.0
4.10000, 461.0
4.14000, 454.0
4.18000, 422.0
4.22000, 421.0
4.26000, 424.0
4.30000, 395.0
4.34000, 389.0
4.38000, 402.0
4.42000, 382.0
4.46000, 407.0
4.50000, 359.0
4.54000, 360.0
4.58000, 370.0
4.62000, 349.0
4.66000, 354.0
4.70000, 333.0
4.74000, 349.0
4.78000, 334.0
4.82000, 341.0
4.86000, 321.0
4.90000, 327.0
4.94000, 303.0
4.98000, 300.0
5.02000, 332.0
5.06000, 331.0
5.10000, 347.0
5.14000, 326.0
5.18000, 312.0
5.22000, 273.0
5.26000, 301.0
5.30000, 262.0
5.34000, 275.0
5.38000, 293.0
5.42000, 275.0
5.46000, 244.0
5.50000, 248.0
5.54000, 224.0
5.58000, 249.0
5.62000, 228.0
5.66000, 230.0
5.70000, 231.0
5.74000, 225.0
5.78000, 196.0
5.82000, 200.0
5.86000, 199.0
5.90000, 195.0
5.94000, 190.0
5.98000, 189.0
6.02000, 177.0
6.06000, 201.0
6.10000, 191.0
6.14000, 183.0
6.18000, 190.0
6.22000, 181.0
6.26000, 171.0
6.30000, 173.0
6.34000, 181.0
6.38000, 183.0
6.42000, 178.0
6.46000, 169.0
6.50000, 160.0
6.54000, 155.0
6.58000, 171.0
6.62000, 144.0
6.66000, 161.0
6.70000, 139.0
6.74000, 163.0
6.78000, 151.0
6.82000, 147.0
6.86000, 125.0
6.90000, 126.0
6.94000, 123.0
6.98000, 121.0
7.02000, 111.0
7.06000, 135.0
7.10000, 116.0
7.14000, 118.0
7.18000, 118.0
7.22000, 92.0
7.26000, 114.0
7.30000, 106.0
7.34000, 98.0
7.38000, 108.0
7.42000, 90.0
7.46000, 106.0
7.50000, 79.0
7.54000, 92.0
7.58000, 95.0
7.62000, 93.0
7.66000, 90.0
7.70000, 86.0
7.74000, 83.0
7.78000, 77.0
7.82000, 82.0
7.86000, 80.0
7.90000, 74.0
7.94000, 68.0
7.98000, 70.0
8.02000, 58.0
8.06000, 58.0
8.10000, 66.0
8.14000, 58.0
8.18000, 54.0
8.22000, 53.0
8.26000, 55.0
8.30000, 56.0
8.34000, 52.0
8.38000, 46.0
8.42000, 52.0
8.46000, 51.0
8.50000, 50.0
8.54000, 50.0
8.58000, 41.0
8.62000, 47.0
8.66000, 48.0
8.70000, 42.0
8.74000, 38.0
8.78000, 37.0
8.82000, 27.0
8.86000, 34.0
8.90000, 30.0
8.94000, 24.0
8.98000, 30.0
9.02000, 19.0
9.06000, 32.0
9.10000, 32.0
9.14000, 27.0
9.18000, 19.0
9.22000, 24.0
9.26000, 22.0
9.30000, 23.0
9.34000, 18.0
9.38000, 18.0
9.42000, 14.0
9.46000, 12.0
9.50000, 12.0
9.54000, 13.0
9.58000, 13.0
9.62000, 10.0
9.66000, 6.0
9.70000, 4.0
9.74000, 5.0
9.78000, 6.0
9.82000, 3.0
9.86000, 2.0
9.90000, 1.0
9.94000, 3.0
9.98000, 1.0
10.02000, 1.0
10.06000, 0.0
10.10000, 2.0
10.13000, 2.0
#ENDOFDATA   :