Folder: 2024-Real-SIC-in-FLiNaK/Experimental data/SEM and EDX/EDX/Second/EDX/1

Note: README.md
# 2024-Real-SIC-in-FLiNaK
Data repository for Wande's SiC/Al2O3/Y2O3 cororison in FLiNaK manuscript

File: Map Sum Spectrum.txt
#FORMAT      : EMSA/MAS Spectral Data File
#VERSION     : 1.0
#TITLE       : Map Sum Spectrum
#DATE        : 10-JUL-2024
#TIME        : 10:36
#OWNER       :
#NPOINTS     : 1024.0
#NCOLUMNS    : 1.0
#XUNITS      : keV
#YUNITS      : counts
#DATATYPE    : XY
#XPERCHAN    : 0.01
#OFFSET      : -0.1
#SIGNALTYPE  : EDS
#CHOFFSET    : 10.0
#LIVETIME    : 121.38
#REALTIME    : 170.068
#BEAMKV      : 10.0
#PROBECUR    : 0.0
#MAGCAM      : 347.0
#XTILTSTGE   : 0.0
#AZIMANGLE   : 0.0
#ELEVANGLE   : 35.0
#XPOSITION mm: 66.4303
#YPOSITION mm: 62.8987
#ZPOSITION mm: 34.2099
##OXINSTPT   : 5
##OXINSTSTROB: 34.37
##OXINSTNDET : 1
##OXINSTELEMS: 6,13,14,18,19,39,8,9,11
##OXINSTLABEL: 6, 0.277, C
##OXINSTLABEL: 13, 1.487, Al
##OXINSTLABEL: 14, 1.740, Si
##OXINSTLABEL: 18, 2.958, Ar
##OXINSTLABEL: 18, 3.191, Ar
##OXINSTLABEL: 18, 0.220, Ar
##OXINSTLABEL: 19, 3.314, K
##OXINSTLABEL: 19, 3.590, K
##OXINSTLABEL: 19, 0.260, K
##OXINSTLABEL: 39, 1.923, Y
##OXINSTLABEL: 39, 1.761, Y
##OXINSTLABEL: 39, 1.685, Y
##OXINSTLABEL: 39, 0.133, Y
##OXINSTLABEL: 8, 0.525, O
##OXINSTLABEL: 9, 0.677, F
##OXINSTLABEL: 11, 1.041, Na
#SPECTRUM    : Spectral Data Starts Here
-0.10000, 0.0
-0.06000, 2.0
-0.02000, 1795.0
0.02000, 5642.0
0.06000, 2874.0
0.10000, 5682.0
0.14000, 1528.0
0.18000, 1811.0
0.22000, 5195.0
0.26000, 41967.0
0.30000, 19990.0
0.34000, 1633.0
0.38000, 1995.0
0.42000, 2705.0
0.46000, 5127.0
0.50000, 31690.0
0.54000, 39228.0
0.58000, 6388.0
0.62000, 7465.0
0.66000, 34211.0
0.70000, 32098.0
0.74000, 7710.0
0.78000, 5593.0
0.82000, 6080.0
0.86000, 7101.0
0.90000, 6362.0
0.94000, 6441.0
0.98000, 6688.0
1.02000, 11988.0
1.06000, 13469.0
1.10000, 6988.0
1.14000, 5904.0
1.18000, 5967.0
1.22000, 5848.0
1.26000, 5807.0
1.30000, 5693.0
1.34000, 5689.0
1.38000, 5823.0
1.42000, 7039.0
1.46000, 18580.0
1.50000, 26300.0
1.54000, 12172.0
1.58000, 6946.0
1.62000, 6124.0
1.66000, 18321.0
1.70000, 166615.0
1.74000, 413614.0
1.78000, 214708.0
1.82000, 40370.0
1.86000, 16941.0
1.90000, 7623.0
1.94000, 5372.0
1.98000, 4566.0
2.02000, 4319.0
2.06000, 3284.0
2.10000, 2762.0
2.14000, 2662.0
2.18000, 2554.0
2.22000, 2671.0
2.26000, 2820.0
2.30000, 2745.0
2.34000, 2621.0
2.38000, 2531.0
2.42000, 2538.0
2.46000, 2376.0
2.50000, 2375.0
2.54000, 2267.0
2.58000, 2207.0
2.62000, 2221.0
2.66000, 2174.0
2.70000, 2164.0
2.74000, 2165.0
2.78000, 2104.0
2.82000, 2100.0
2.86000, 2275.0
2.90000, 3932.0
2.94000, 8043.0
2.98000, 8663.0
3.02000, 4463.0
3.06000, 2231.0
3.10000, 1951.0
3.14000, 2105.0
3.18000, 2528.0
3.22000, 2901.0
3.26000, 4183.0
3.30000, 7043.0
3.34000, 6928.0
3.38000, 3833.0
3.42000, 2571.0
3.46000, 3521.0
3.50000, 3924.0
3.54000, 2942.0
3.58000, 2466.0
3.62000, 2151.0
3.66000, 1641.0
3.70000, 1484.0
3.74000, 1344.0
3.78000, 1323.0
3.82000, 1315.0
3.86000, 1284.0
3.90000, 1267.0
3.94000, 1213.0
3.98000, 1231.0
4.02000, 1231.0
4.06000, 1180.0
4.10000, 1150.0
4.14000, 1168.0
4.18000, 1147.0
4.22000, 1097.0
4.26000, 1011.0
4.30000, 1109.0
4.34000, 1033.0
4.38000, 1029.0
4.42000, 995.0
4.46000, 962.0
4.50000, 966.0
4.54000, 966.0
4.58000, 984.0
4.62000, 948.0
4.66000, 981.0
4.70000, 979.0
4.74000, 905.0
4.78000, 881.0
4.82000, 862.0
4.86000, 823.0
4.90000, 836.0
4.94000, 840.0
4.98000, 819.0
5.02000, 793.0
5.06000, 794.0
5.10000, 792.0
5.14000, 745.0
5.18000, 720.0
5.22000, 712.0
5.26000, 726.0
5.30000, 742.0
5.34000, 764.0
5.38000, 897.0
5.42000, 965.0
5.46000, 827.0
5.50000, 721.0
5.54000, 612.0
5.58000, 626.0
5.62000, 602.0
5.66000, 592.0
5.70000, 572.0
5.74000, 584.0
5.78000, 549.0
5.82000, 549.0
5.86000, 604.0
5.90000, 573.0
5.94000, 557.0
5.98000, 541.0
6.02000, 500.0
6.06000, 483.0
6.10000, 485.0
6.14000, 462.0
6.18000, 472.0
6.22000, 473.0
6.26000, 464.0
6.30000, 509.0
6.34000, 600.0
6.38000, 721.0
6.42000, 704.0
6.46000, 585.0
6.50000, 487.0
6.54000, 403.0
6.58000, 381.0
6.62000, 415.0
6.66000, 374.0
6.70000, 391.0
6.74000, 376.0
6.78000, 343.0
6.82000, 359.0
6.86000, 327.0
6.90000, 346.0
6.94000, 332.0
6.98000, 347.0
7.02000, 340.0
7.06000, 337.0
7.10000, 356.0
7.14000, 316.0
7.18000, 284.0
7.22000, 286.0
7.26000, 276.0
7.30000, 249.0
7.34000, 280.0
7.38000, 260.0
7.42000, 284.0
7.46000, 297.0
7.50000, 308.0
7.54000, 272.0
7.58000, 253.0
7.62000, 221.0
7.66000, 225.0
7.70000, 230.0
7.74000, 206.0
7.78000, 234.0
7.82000, 199.0
7.86000, 205.0
7.90000, 197.0
7.94000, 187.0
7.98000, 187.0
8.02000, 193.0
8.06000, 186.0
8.10000, 176.0
8.14000, 146.0
8.18000, 161.0
8.22000, 150.0
8.26000, 162.0
8.30000, 151.0
8.34000, 162.0
8.38000, 148.0
8.42000, 136.0
8.46000, 137.0
8.50000, 141.0
8.54000, 103.0
8.58000, 121.0
8.62000, 116.0
8.66000, 120.0
8.70000, 101.0
8.74000, 116.0
8.78000, 102.0
8.82000, 101.0
8.86000, 106.0
8.90000, 95.0
8.94000, 80.0
8.98000, 84.0
9.02000, 69.0
9.06000, 67.0
9.10000, 85.0
9.14000, 73.0
9.18000, 68.0
9.22000, 64.0
9.26000, 68.0
9.30000, 61.0
9.34000, 54.0
9.38000, 50.0
9.42000, 48.0
9.46000, 43.0
9.50000, 36.0
9.54000, 38.0
9.58000, 31.0
9.62000, 32.0
9.66000, 29.0
9.70000, 24.0
9.74000, 24.0
9.78000, 18.0
9.82000, 18.0
9.86000, 10.0
9.90000, 14.0
9.94000, 10.0
9.98000, 6.0
10.02000, 4.0
10.06000, 5.0
10.10000, 4.0
10.13000, 5.0
#ENDOFDATA   :