Folder: 2024-Real-SIC-in-FLiNaK/Experimental data/SEM and EDX/EDX/Second/EDX/2

Note: README.md
# 2024-Real-SIC-in-FLiNaK
Data repository for Wande's SiC/Al2O3/Y2O3 cororison in FLiNaK manuscript

File: Map Sum Spectrum.txt
#FORMAT      : EMSA/MAS Spectral Data File
#VERSION     : 1.0
#TITLE       : Map Sum Spectrum
#DATE        : 10-JUL-2024
#TIME        : 10:48
#OWNER       :
#NPOINTS     : 1024.0
#NCOLUMNS    : 1.0
#XUNITS      : keV
#YUNITS      : counts
#DATATYPE    : XY
#XPERCHAN    : 0.01
#OFFSET      : -0.1
#SIGNALTYPE  : EDS
#CHOFFSET    : 10.0
#LIVETIME    : 99.8148
#REALTIME    : 139.646
#BEAMKV      : 10.0
#PROBECUR    : 0.0
#MAGCAM      : 760.0
#XTILTSTGE   : 0.0
#AZIMANGLE   : 0.0
#ELEVANGLE   : 35.0
#XPOSITION mm: 66.4193
#YPOSITION mm: 63.0347
#ZPOSITION mm: 34.2099
##OXINSTPT   : 5
##OXINSTSTROB: 34.76
##OXINSTNDET : 1
##OXINSTELEMS: 6,8,9,13,14,19,76,11,24,26
##OXINSTLABEL: 6, 0.277, C
##OXINSTLABEL: 8, 0.525, O
##OXINSTLABEL: 9, 0.677, F
##OXINSTLABEL: 13, 1.487, Al
##OXINSTLABEL: 14, 1.740, Si
##OXINSTLABEL: 19, 3.314, K
##OXINSTLABEL: 19, 3.590, K
##OXINSTLABEL: 19, 0.260, K
##OXINSTLABEL: 76, 8.912, Os
##OXINSTLABEL: 76, 9.337, Os
##OXINSTLABEL: 76, 7.822, Os
##OXINSTLABEL: 76, 1.910, Os
##OXINSTLABEL: 76, 2.182, Os
##OXINSTLABEL: 76, 1.483, Os
##OXINSTLABEL: 76, 0.239, Os
##OXINSTLABEL: 76, 0.227, Os
##OXINSTLABEL: 11, 1.041, Na
##OXINSTLABEL: 24, 5.415, Cr
##OXINSTLABEL: 24, 5.947, Cr
##OXINSTLABEL: 24, 0.573, Cr
##OXINSTLABEL: 24, 0.500, Cr
##OXINSTLABEL: 26, 6.404, Fe
##OXINSTLABEL: 26, 7.058, Fe
##OXINSTLABEL: 26, 0.703, Fe
##OXINSTLABEL: 26, 0.615, Fe
#SPECTRUM    : Spectral Data Starts Here
-0.10000, 0.0
-0.06000, 3.0
-0.02000, 1500.0
0.02000, 4850.0
0.06000, 3064.0
0.10000, 5826.0
0.14000, 1407.0
0.18000, 1512.0
0.22000, 3918.0
0.26000, 31690.0
0.30000, 14833.0
0.34000, 1504.0
0.38000, 1743.0
0.42000, 2369.0
0.46000, 4329.0
0.50000, 23526.0
0.54000, 29471.0
0.58000, 6129.0
0.62000, 11488.0
0.66000, 77958.0
0.70000, 68245.0
0.74000, 8189.0
0.78000, 4322.0
0.82000, 4552.0
0.86000, 5108.0
0.90000, 4955.0
0.94000, 5088.0
0.98000, 5624.0
1.02000, 14775.0
1.06000, 17265.0
1.10000, 6321.0
1.14000, 4560.0
1.18000, 4553.0
1.22000, 4478.0
1.26000, 4450.0
1.30000, 4424.0
1.34000, 4828.0
1.38000, 4668.0
1.42000, 6147.0
1.46000, 21367.0
1.50000, 31719.0
1.54000, 12885.0
1.58000, 5615.0
1.62000, 4631.0
1.66000, 13314.0
1.70000, 117414.0
1.74000, 288402.0
1.78000, 149909.0
1.82000, 28729.0
1.86000, 12277.0
1.90000, 6156.0
1.94000, 4758.0
1.98000, 3932.0
2.02000, 3505.0
2.06000, 2667.0
2.10000, 2216.0
2.14000, 2065.0
2.18000, 1997.0
2.22000, 2047.0
2.26000, 2146.0
2.30000, 2182.0
2.34000, 1974.0
2.38000, 1989.0
2.42000, 1962.0
2.46000, 1973.0
2.50000, 1814.0
2.54000, 1847.0
2.58000, 1800.0
2.62000, 1736.0
2.66000, 1760.0
2.70000, 1742.0
2.74000, 1708.0
2.78000, 1676.0
2.82000, 1650.0
2.86000, 1606.0
2.90000, 1506.0
2.94000, 1621.0
2.98000, 1571.0
3.02000, 1550.0
3.06000, 1453.0
3.10000, 1430.0
3.14000, 1442.0
3.18000, 1544.0
3.22000, 1871.0
3.26000, 3361.0
3.30000, 6399.0
3.34000, 6349.0
3.38000, 3359.0
3.42000, 2029.0
3.46000, 2764.0
3.50000, 2915.0
3.54000, 2280.0
3.58000, 2021.0
3.62000, 1820.0
3.66000, 1400.0
3.70000, 1172.0
3.74000, 1073.0
3.78000, 1065.0
3.82000, 1057.0
3.86000, 1024.0
3.90000, 993.0
3.94000, 956.0
3.98000, 998.0
4.02000, 926.0
4.06000, 926.0
4.10000, 886.0
4.14000, 883.0
4.18000, 882.0
4.22000, 856.0
4.26000, 850.0
4.30000, 861.0
4.34000, 819.0
4.38000, 829.0
4.42000, 772.0
4.46000, 762.0
4.50000, 815.0
4.54000, 755.0
4.58000, 736.0
4.62000, 732.0
4.66000, 721.0
4.70000, 734.0
4.74000, 723.0
4.78000, 693.0
4.82000, 685.0
4.86000, 678.0
4.90000, 668.0
4.94000, 626.0
4.98000, 635.0
5.02000, 637.0
5.06000, 633.0
5.10000, 646.0
5.14000, 585.0
5.18000, 573.0
5.22000, 569.0
5.26000, 569.0
5.30000, 579.0
5.34000, 666.0
5.38000, 823.0
5.42000, 845.0
5.46000, 778.0
5.50000, 610.0
5.54000, 505.0
5.58000, 513.0
5.62000, 454.0
5.66000, 473.0
5.70000, 470.0
5.74000, 445.0
5.78000, 470.0
5.82000, 463.0
5.86000, 468.0
5.90000, 452.0
5.94000, 488.0
5.98000, 437.0
6.02000, 408.0
6.06000, 404.0
6.10000, 366.0
6.14000, 367.0
6.18000, 372.0
6.22000, 379.0
6.26000, 412.0
6.30000, 385.0
6.34000, 471.0
6.38000, 525.0
6.42000, 534.0
6.46000, 410.0
6.50000, 362.0
6.54000, 331.0
6.58000, 309.0
6.62000, 293.0
6.66000, 304.0
6.70000, 281.0
6.74000, 272.0
6.78000, 279.0
6.82000, 282.0
6.86000, 273.0
6.90000, 264.0
6.94000, 262.0
6.98000, 271.0
7.02000, 268.0
7.06000, 277.0
7.10000, 258.0
7.14000, 254.0
7.18000, 242.0
7.22000, 218.0
7.26000, 227.0
7.30000, 214.0
7.34000, 205.0
7.38000, 212.0
7.42000, 231.0
7.46000, 219.0
7.50000, 212.0
7.54000, 207.0
7.58000, 200.0
7.62000, 193.0
7.66000, 176.0
7.70000, 170.0
7.74000, 184.0
7.78000, 169.0
7.82000, 166.0
7.86000, 143.0
7.90000, 158.0
7.94000, 152.0
7.98000, 145.0
8.02000, 129.0
8.06000, 146.0
8.10000, 136.0
8.14000, 137.0
8.18000, 131.0
8.22000, 147.0
8.26000, 136.0
8.30000, 126.0
8.34000, 109.0
8.38000, 109.0
8.42000, 108.0
8.46000, 103.0
8.50000, 101.0
8.54000, 99.0
8.58000, 110.0
8.62000, 85.0
8.66000, 90.0
8.70000, 80.0
8.74000, 83.0
8.78000, 93.0
8.82000, 74.0
8.86000, 73.0
8.90000, 74.0
8.94000, 76.0
8.98000, 71.0
9.02000, 64.0
9.06000, 57.0
9.10000, 54.0
9.14000, 40.0
9.18000, 62.0
9.22000, 52.0
9.26000, 44.0
9.30000, 40.0
9.34000, 47.0
9.38000, 39.0
9.42000, 30.0
9.46000, 39.0
9.50000, 38.0
9.54000, 26.0
9.58000, 26.0
9.62000, 25.0
9.66000, 24.0
9.70000, 22.0
9.74000, 18.0
9.78000, 20.0
9.82000, 10.0
9.86000, 7.0
9.90000, 8.0
9.94000, 7.0
9.98000, 4.0
10.02000, 1.0
10.06000, 5.0
10.10000, 4.0
10.13000, 5.0
#ENDOFDATA   :