Folder: 2024-Real-SIC-in-FLiNaK/Experimental data/SEM and EDX/EDX/Second/EDX/3

Note: README.md
# 2024-Real-SIC-in-FLiNaK
Data repository for Wande's SiC/Al2O3/Y2O3 cororison in FLiNaK manuscript

File: Map Sum Spectrum.txt
#FORMAT      : EMSA/MAS Spectral Data File
#VERSION     : 1.0
#TITLE       : Map Sum Spectrum
#DATE        : 10-JUL-2024
#TIME        : 10:53
#OWNER       :
#NPOINTS     : 1024.0
#NCOLUMNS    : 1.0
#XUNITS      : keV
#YUNITS      : counts
#DATATYPE    : XY
#XPERCHAN    : 0.01
#OFFSET      : -0.1
#SIGNALTYPE  : EDS
#CHOFFSET    : 10.0
#LIVETIME    : 78.6432
#REALTIME    : 112.218
#BEAMKV      : 10.0
#PROBECUR    : 0.0
#MAGCAM      : 3040.0
#XTILTSTGE   : 0.0
#AZIMANGLE   : 0.0
#ELEVANGLE   : 35.0
#XPOSITION mm: 66.4332
#YPOSITION mm: 63.0390
#ZPOSITION mm: 34.2099
##OXINSTPT   : 5
##OXINSTSTROB: 34.61
##OXINSTNDET : 1
##OXINSTELEMS: 6,8,13,14,19,9,76,11,26,24
##OXINSTLABEL: 6, 0.277, C
##OXINSTLABEL: 8, 0.525, O
##OXINSTLABEL: 13, 1.487, Al
##OXINSTLABEL: 14, 1.740, Si
##OXINSTLABEL: 19, 3.314, K
##OXINSTLABEL: 19, 3.590, K
##OXINSTLABEL: 19, 0.260, K
##OXINSTLABEL: 9, 0.677, F
##OXINSTLABEL: 76, 8.912, Os
##OXINSTLABEL: 76, 9.337, Os
##OXINSTLABEL: 76, 7.822, Os
##OXINSTLABEL: 76, 1.910, Os
##OXINSTLABEL: 76, 2.182, Os
##OXINSTLABEL: 76, 1.483, Os
##OXINSTLABEL: 76, 0.239, Os
##OXINSTLABEL: 76, 0.227, Os
##OXINSTLABEL: 11, 1.041, Na
##OXINSTLABEL: 26, 6.404, Fe
##OXINSTLABEL: 26, 7.058, Fe
##OXINSTLABEL: 26, 0.703, Fe
##OXINSTLABEL: 26, 0.615, Fe
##OXINSTLABEL: 24, 5.415, Cr
##OXINSTLABEL: 24, 5.947, Cr
##OXINSTLABEL: 24, 0.573, Cr
##OXINSTLABEL: 24, 0.500, Cr
#SPECTRUM    : Spectral Data Starts Here
-0.10000, 0.0
-0.06000, 0.0
-0.02000, 1167.0
0.02000, 3622.0
0.06000, 2182.0
0.10000, 5305.0
0.14000, 1021.0
0.18000, 1097.0
0.22000, 3025.0
0.26000, 27932.0
0.30000, 13646.0
0.34000, 1034.0
0.38000, 1270.0
0.42000, 1753.0
0.46000, 3521.0
0.50000, 23551.0
0.54000, 29153.0
0.58000, 4097.0
0.62000, 3490.0
0.66000, 9444.0
0.70000, 9029.0
0.74000, 4068.0
0.78000, 3766.0
0.82000, 4091.0
0.86000, 4466.0
0.90000, 4181.0
0.94000, 4229.0
0.98000, 4311.0
1.02000, 5292.0
1.06000, 5630.0
1.10000, 4265.0
1.14000, 4036.0
1.18000, 4077.0
1.22000, 3985.0
1.26000, 3930.0
1.30000, 4048.0
1.34000, 4007.0
1.38000, 3975.0
1.42000, 6527.0
1.46000, 27193.0
1.50000, 40915.0
1.54000, 14980.0
1.58000, 5423.0
1.62000, 4296.0
1.66000, 12622.0
1.70000, 115181.0
1.74000, 283898.0
1.78000, 148346.0
1.82000, 28103.0
1.86000, 11942.0
1.90000, 6367.0
1.94000, 5186.0
1.98000, 4037.0
2.02000, 3417.0
2.06000, 2483.0
2.10000, 1868.0
2.14000, 1739.0
2.18000, 1650.0
2.22000, 1801.0
2.26000, 1808.0
2.30000, 1788.0
2.34000, 1644.0
2.38000, 1679.0
2.42000, 1632.0
2.46000, 1549.0
2.50000, 1562.0
2.54000, 1534.0
2.58000, 1465.0
2.62000, 1467.0
2.66000, 1452.0
2.70000, 1391.0
2.74000, 1409.0
2.78000, 1410.0
2.82000, 1411.0
2.86000, 1345.0
2.90000, 1342.0
2.94000, 1366.0
2.98000, 1408.0
3.02000, 1295.0
3.06000, 1236.0
3.10000, 1244.0
3.14000, 1201.0
3.18000, 1275.0
3.22000, 1534.0
3.26000, 2462.0
3.30000, 4166.0
3.34000, 4056.0
3.38000, 2248.0
3.42000, 1753.0
3.46000, 2482.0
3.50000, 2727.0
3.54000, 2005.0
3.58000, 1532.0
3.62000, 1359.0
3.66000, 1089.0
3.70000, 964.0
3.74000, 897.0
3.78000, 927.0
3.82000, 872.0
3.86000, 857.0
3.90000, 810.0
3.94000, 814.0
3.98000, 807.0
4.02000, 774.0
4.06000, 754.0
4.10000, 741.0
4.14000, 703.0
4.18000, 741.0
4.22000, 724.0
4.26000, 697.0
4.30000, 718.0
4.34000, 733.0
4.38000, 678.0
4.42000, 670.0
4.46000, 642.0
4.50000, 638.0
4.54000, 659.0
4.58000, 633.0
4.62000, 612.0
4.66000, 590.0
4.70000, 615.0
4.74000, 581.0
4.78000, 586.0
4.82000, 570.0
4.86000, 559.0
4.90000, 551.0
4.94000, 542.0
4.98000, 530.0
5.02000, 524.0
5.06000, 564.0
5.10000, 534.0
5.14000, 506.0
5.18000, 472.0
5.22000, 495.0
5.26000, 486.0
5.30000, 469.0
5.34000, 472.0
5.38000, 572.0
5.42000, 566.0
5.46000, 513.0
5.50000, 453.0
5.54000, 410.0
5.58000, 384.0
5.62000, 422.0
5.66000, 390.0
5.70000, 394.0
5.74000, 384.0
5.78000, 373.0
5.82000, 333.0
5.86000, 366.0
5.90000, 356.0
5.94000, 361.0
5.98000, 376.0
6.02000, 344.0
6.06000, 334.0
6.10000, 318.0
6.14000, 307.0
6.18000, 293.0
6.22000, 310.0
6.26000, 299.0
6.30000, 308.0
6.34000, 360.0
6.38000, 381.0
6.42000, 359.0
6.46000, 306.0
6.50000, 285.0
6.54000, 259.0
6.58000, 239.0
6.62000, 227.0
6.66000, 261.0
6.70000, 248.0
6.74000, 241.0
6.78000, 216.0
6.82000, 236.0
6.86000, 217.0
6.90000, 222.0
6.94000, 208.0
6.98000, 221.0
7.02000, 206.0
7.06000, 226.0
7.10000, 221.0
7.14000, 194.0
7.18000, 182.0
7.22000, 189.0
7.26000, 175.0
7.30000, 193.0
7.34000, 187.0
7.38000, 170.0
7.42000, 182.0
7.46000, 184.0
7.50000, 188.0
7.54000, 179.0
7.58000, 154.0
7.62000, 147.0
7.66000, 161.0
7.70000, 144.0
7.74000, 144.0
7.78000, 140.0
7.82000, 142.0
7.86000, 126.0
7.90000, 123.0
7.94000, 136.0
7.98000, 115.0
8.02000, 119.0
8.06000, 126.0
8.10000, 124.0
8.14000, 112.0
8.18000, 107.0
8.22000, 85.0
8.26000, 103.0
8.30000, 112.0
8.34000, 100.0
8.38000, 84.0
8.42000, 89.0
8.46000, 90.0
8.50000, 93.0
8.54000, 78.0
8.58000, 80.0
8.62000, 69.0
8.66000, 86.0
8.70000, 58.0
8.74000, 70.0
8.78000, 69.0
8.82000, 67.0
8.86000, 61.0
8.90000, 71.0
8.94000, 55.0
8.98000, 60.0
9.02000, 56.0
9.06000, 45.0
9.10000, 53.0
9.14000, 52.0
9.18000, 43.0
9.22000, 33.0
9.26000, 34.0
9.30000, 39.0
9.34000, 37.0
9.38000, 27.0
9.42000, 34.0
9.46000, 23.0
9.50000, 25.0
9.54000, 23.0
9.58000, 23.0
9.62000, 20.0
9.66000, 14.0
9.70000, 14.0
9.74000, 13.0
9.78000, 8.0
9.82000, 12.0
9.86000, 7.0
9.90000, 9.0
9.94000, 4.0
9.98000, 2.0
10.02000, 2.0
10.06000, 4.0
10.10000, 3.0
10.13000, 0.0
#ENDOFDATA   :